File: activeresearchdata/TMDCs/photoelectric-effect_MoS2_ASTAR-NUS_2024-2025/Raman_spectroscopy/20241202_MoS2_Region B_532nm.txt
#Wave		#Intensity
1284.03	413.528
1282.89	393.732
1281.76	365.072
1280.62	400.19
1279.48	417.707
1278.35	389.059
1277.21	415.363
1276.07	415.29
1274.93	408.626
1273.79	382.196
1272.66	375.54
1271.52	377.669
1270.38	425.901
1269.24	373.146
1268.1	342.356
1266.96	370.82
1265.82	361.98
1264.68	331.208
1263.54	377.203
1262.4	392.485
1261.26	392.415
1260.12	377.003
1258.98	376.936
1257.84	405.353
1256.7	361.467
1255.56	370.164
1254.42	383.238
1253.27	343.759
1252.13	359.022
1250.99	376.468
1249.85	387.343
1248.71	380.71
1247.56	371.892
1246.42	391.511
1245.28	363.012
1244.13	356.388
1242.99	327.906
1241.85	356.261
1240.7	349.642
1239.56	360.504
1238.41	364.808
1237.27	377.848
1236.12	349.392
1234.98	384.263
1233.83	329.621
1232.69	303.372
1231.54	375.328
1230.39	383.988
1229.25	381.738
1228.1	364.221
1226.96	357.614
1225.81	398.974
1224.66	366.205
1223.52	374.857
1222.37	374.79
1221.22	383.437
1220.07	394.259
1218.93	374.588
1217.78	387.585
1216.63	363.568
1215.48	350.442
1214.33	383.023
1213.18	365.547
1212.03	341.551
1210.88	374.116
1209.73	374.049
1208.58	365.284
1207.44	373.914
1206.29	328.202
1205.13	354.22
1203.98	338.947
1202.83	347.575
1201.68	364.888
1200.53	325.734
1199.38	345.216
1198.23	340.812
1197.08	336.409
1195.92	368.898
1194.77	371.001
1193.62	377.441
1192.47	338.334
1191.31	368.631
1190.16	336.043
1189.01	320.809
1187.85	338.089
1186.7	359.696
1185.54	366.13
1184.39	333.572
1183.24	355.168
1182.08	352.938
1180.93	339.885
1179.77	341.987
1178.62	352.746
1177.46	367.827
1176.31	335.311
1175.15	363.367
1173.99	315.726
1172.84	317.831
1171.68	363.169
1170.53	306.908
1169.37	358.714
1168.21	324.08
1167.05	345.622
1165.9	390.914
1164.74	364.93
1163.58	330.32
1162.42	349.687
1161.26	306.459
1160.11	336.612
1158.95	345.18
1157.79	306.291
1156.63	321.331
1155.47	342.834
1154.31	375.108
1153.15	353.485
1151.99	346.956
1150.83	318.882
1149.67	344.674
1148.51	342.457
1147.35	314.4
1146.19	331.566
1145.02	353.031
1143.86	324.987
1142.7	365.813
1141.54	296.899
1140.38	326.959
1139.21	329.05
1138.05	374.144
1136.89	346.127
1135.72	337.466
1134.56	313.764
1133.4	358.828
1132.23	332.983
1131.07	347.956
1129.91	350.04
1128.74	356.416
1127.58	373.524
1126.41	369.163
1125.25	336.906
1124.08	354.008
1122.92	347.507
1121.75	351.732
1120.59	304.492
1119.42	370.897
1118.25	334.389
1117.09	345.043
1115.92	338.551
1114.75	353.484
1113.59	370.554
1112.42	289.107
1111.25	293.336
1110.08	321.111
1108.91	316.771
1107.75	318.852
1106.58	357.305
1105.41	342.265
1104.24	374.283
1103.07	325.031
1101.9	295.039
1100.73	309.947
1099.56	271.421
1098.39	316.242
1097.22	329.002
1096.05	343.892
1094.88	320.337
1093.71	339.494
1092.54	322.353
1091.37	350.04
1090.2	356.377
1089.03	305.104
1087.85	296.514
1086.68	336.982
1085.51	339.052
1084.34	341.121
1083.16	330.399
1081.99	334.6
1080.82	347.323
1079.64	313.171
1078.47	291.813
1077.29	338.61
1076.12	281.058
1074.95	323.582
1073.77	310.751
1072.6	302.18
1071.42	317.017
1070.25	302.068
1069.07	357.309
1067.9	312.587
1066.72	299.772
1065.54	301.842
1064.37	306.036
1063.19	333.602
1062.02	329.29
1060.84	335.601
1059.66	305.807
1058.48	316.366
1057.3	320.552
1056.13	328.982
1054.95	328.92
1053.77	318.25
1052.59	330.918
1051.41	330.856
1050.23	339.276
1049.05	349.813
1047.88	334.909
1046.7	341.204
1045.52	322.07
1044.34	288.114
1043.16	313.477
1041.98	319.771
1040.79	304.89
1039.61	326.002
1038.43	306.892
1037.25	317.415
1036.07	311.008
1034.89	310.95
1033.71	329.925
1032.52	321.405
1031.34	329.801
1030.16	281.124
1028.97	355.037
1027.79	340.18
1026.61	335.891
1025.43	299.921
1024.24	308.312
1023.06	327.256
1021.87	371.523
1020.69	276.48
1019.5	337.621
1018.32	324.899
1017.13	350.15
1015.95	331.103
1014.76	358.452
1013.58	347.844
1012.39	330.916
1011.2	313.995
1010.02	303.401
1008.83	320.196
1007.64	358.046
1006.46	395.882
1005.27	349.49
1004.08	328.374
1002.89	317.789
1001.71	340.875
1000.52	317.669
999.328	323.919
998.139	334.373
996.951	323.797
995.762	369.983
994.572	302.656
993.383	319.41
992.191	319.35
991.002	363.401
989.812	369.633
988.621	346.466
987.43	312.81
986.238	352.631
985.049	325.283
983.855	327.319
982.664	325.159
981.473	350.267
980.281	308.26
979.088	360.617
977.896	360.549
976.703	333.235
975.51	341.553
974.316	314.253
973.123	337.234
971.93	305.757
970.734	378.983
969.541	318.201
968.346	366.281
967.152	357.841
965.957	353.588
964.762	338.878
963.566	332.54
962.371	332.476
961.176	319.869
959.979	328.169
958.783	351.096
957.586	315.508
956.389	338.428
955.193	348.807
953.996	350.829
952.799	294.389
951.6	323.558
950.402	336.019
949.205	367.255
948.006	327.546
946.807	319.14
945.609	352.447
944.41	350.295
943.211	314.788
942.012	302.223
940.811	329.256
939.611	322.943
938.412	333.297
937.211	337.398
936.01	341.499
934.811	335.188
933.609	318.472
932.408	312.168
931.205	339.158
930.004	353.655
928.803	326.549
927.6	301.532
926.398	286.921
925.195	353.385
923.992	369.945
922.789	324.159
921.586	301.245
920.383	317.804
919.178	326.051
917.975	292.767
916.77	357.065
915.564	307.184
914.361	309.2
913.156	379.683
911.951	309.082
910.746	306.949
909.539	367.024
908.334	317.198
907.127	304.7
905.922	300.497
904.715	327.376
903.508	296.239
902.301	316.895
901.094	333.4
899.887	318.844
898.678	337.413
897.471	329.07
896.262	318.661
895.055	335.15
893.846	310.265
892.637	347.43
891.428	339.093
890.219	336.961
889.008	301.76
887.799	295.503
886.588	345.032
885.379	318.112
884.168	289.137
882.957	297.342
881.746	319.994
880.535	286.907
879.324	332.253
878.111	290.924
876.9	321.811
875.688	305.25
874.475	292.819
873.264	305.133
872.051	325.687
870.836	323.564
869.623	309.078
868.41	323.44
867.197	354.274
865.982	333.612
864.768	286.193
863.553	302.606
862.34	337.537
861.125	314.837
859.908	298.317
858.693	339.399
857.479	263.241
856.262	298.145
855.047	300.144
853.83	316.529
852.613	351.403
851.396	343.117
850.18	326.618
848.963	326.555
847.744	320.332
846.527	322.324
845.309	311.999
844.09	283.207
842.873	320.086
841.654	350.796
840.436	344.575
839.215	360.914
837.996	313.689
836.777	366.925
835.557	342.261
834.336	352.44
833.117	352.373
831.896	329.774
830.676	337.902
829.455	352.169
828.232	327.536
827.012	282.446
825.789	337.642
824.568	310.98
823.346	345.694
822.123	347.672
820.9	355.784
819.678	339.361
818.455	357.691
817.23	320.838
816.008	310.561
814.783	363.613
813.561	345.161
812.336	322.633
811.111	342.987
809.887	381.703
808.66	359.181
807.436	387.678
806.211	365.163
804.984	356.934
803.758	354.826
802.533	344.563
801.307	342.458
800.08	356.659
798.852	374.929
797.625	346.335
796.398	350.342
795.17	325.836
793.943	358.351
792.715	348.103
791.486	394.848
790.258	327.62
789.029	335.694
787.799	353.937
786.57	325.396
785.342	305
784.111	337.468
782.881	355.696
781.65	333.274
780.42	379.94
779.189	402.211
777.959	361.514
776.729	379.72
775.496	334.982
774.266	399.871
773.033	371.382
771.801	373.339
770.568	395.582
769.336	356.969
768.104	358.928
766.869	366.968
765.637	377.033
764.402	354.666
763.17	389.044
761.936	386.943
760.701	378.766
759.467	372.618
758.232	380.645
756.996	352.231
755.762	376.449
754.525	362.212
753.291	368.211
752.055	368.14
750.818	376.158
749.582	384.173
748.346	365.905
747.107	386.046
745.871	351.617
744.633	385.896
743.396	377.741
742.158	371.609
740.92	409.903
739.682	411.842
738.443	391.578
737.205	403.61
735.965	397.479
734.727	385.299
733.486	375.139
732.246	435.561
731.006	423.38
729.766	380.969
728.525	352.68
727.285	382.836
726.045	404.921
724.803	406.857
723.561	404.764
722.32	328.178
721.078	402.594
719.836	410.567
718.594	388.353
717.35	380.23
716.107	370.1
714.865	392.149
713.621	404.137
712.377	367.874
711.133	377.852
709.889	343.618
708.645	351.587
707.4	347.502
706.156	381.575
704.91	351.382
703.666	315.179
702.42	317.125
701.174	401.346
699.928	353.116
698.682	339.006
697.436	373.034
696.188	360.931
694.941	360.861
693.693	362.795
692.447	372.744
691.199	350.632
689.951	334.538
688.703	350.496
687.453	320.391
686.205	344.354
684.957	350.292
683.707	290.185
682.457	336.149
681.207	364.091
679.959	328.018
678.707	369.948
677.457	343.885
676.207	303.839
674.955	299.783
673.705	313.712
672.453	317.646
671.201	325.574
669.949	335.496
668.697	321.454
667.445	315.403
666.193	347.275
664.939	343.216
663.688	315.219
662.434	319.147
661.18	362.959
659.926	315.034
658.672	340.889
657.418	308.932
656.162	334.778
654.908	324.751
653.652	338.631
652.398	332.59
651.143	322.57
649.887	310.562
648.631	312.492
647.375	352.231
646.117	310.38
644.861	364.029
643.604	328.159
642.346	340.026
641.09	341.948
639.832	320.016
638.574	337.84
637.314	353.669
636.057	307.91
634.799	389.281
633.539	323.676
632.279	353.393
631.02	343.399
629.76	381.039
628.5	353.186
627.24	341.214
625.98	360.982
624.719	374.792
623.459	386.615
622.197	360.77
620.936	328.99
619.674	370.536
618.412	392.256
617.15	415.948
615.887	354.477
614.625	378.167
613.361	391.949
612.1	417.602
610.836	423.457
609.572	373.914
608.309	350.105
607.043	375.746
605.779	355.9
604.514	377.575
603.25	415.054
601.984	412.997
600.719	401.062
599.453	395.057
598.188	387.081
596.922	438.342
595.654	418.515
594.389	422.381
593.121	473.605
591.854	432.08
590.588	475.392
589.32	420.078
588.051	421.967
586.783	453.427
585.516	486.846
584.246	447.338
582.979	455.131
581.709	453.072
580.439	498.281
579.17	494.245
577.9	448.868
576.629	470.432
575.359	438.852
574.088	476.15
572.818	472.122
571.547	475.963
570.275	462.105
569.004	436.456
567.732	469.786
566.459	471.659
565.188	453.883
563.914	442.007
562.643	447.812
561.369	485.034
560.096	443.71
558.822	443.622
557.549	404.284
556.273	400.281
555	433.552
553.725	470.733
552.449	409.85
551.176	433.296
549.9	435.171
548.623	454.684
547.348	419.325
546.072	456.465
544.795	413.284
543.52	419.077
542.242	373.963
540.965	393.464
539.688	385.558
538.41	369.828
537.133	389.319
535.854	402.935
534.576	400.9
533.297	369.537
532.018	402.697
530.738	392.845
529.459	414.262
528.18	392.69
526.9	373.08
525.619	392.535
524.34	421.746
523.059	527.079
521.777	694.826
520.496	770.792
519.215	593.1
517.934	470.095
516.652	436.849
515.369	380.218
514.088	395.738
512.805	383.966
511.521	372.198
510.238	424.728
508.955	416.853
507.672	333.027
506.387	362.168
505.104	401.032
503.818	363.971
502.535	360.008
501.25	379.392
499.965	340.413
498.678	363.684
497.393	367.501
496.107	357.708
494.82	371.243
493.535	342.02
492.248	347.781
490.961	339.942
489.674	332.106
488.387	320.39
487.098	318.385
485.811	308.617
484.521	362.893
483.232	329.837
481.945	362.749
480.656	343.283
479.365	341.276
478.076	358.656
476.787	335.326
475.496	333.321
474.207	337.13
472.916	335.126
471.625	352.49
470.334	377.593
469.043	377.519
467.752	367.766
466.459	356.081
465.168	390.838
463.875	417.842
462.582	440.968
461.289	448.616
459.996	431.127
458.703	512.224
457.41	517.919
456.115	550.663
454.82	540.895
453.527	583.278
452.232	588.955
450.938	615.866
449.643	619.604
448.346	656.148
447.051	652.158
445.756	628.88
444.459	611.396
443.162	663.339
441.865	622.72
440.568	684.278
439.271	684.141
437.975	674.371
436.676	672.31
435.379	608.618
434.08	662.414
432.781	660.357
431.482	629.428
430.184	610.057
428.885	592.619
427.584	573.264
426.285	601.999
424.984	615.339
423.684	617.139
422.383	595.872
421.082	599.596
419.781	578.341
418.48	585.91
417.178	651.094
415.877	624.081
414.574	681.552
413.271	760.114
411.969	819.454
410.666	909.469
409.363	1187.45
408.061	1476.82
406.756	2072.88
405.451	2622.7
404.148	2861.77
402.844	2985.76
401.539	2762.91
400.232	2482.67
398.928	2110.61
397.623	1811.47
396.316	1464.58
395.01	1207.8
393.703	985.566
392.396	811.255
391.09	747.964
389.783	680.874
388.477	644.406
387.168	577.364
385.861	630.767
384.553	668.861
383.244	678.28
381.936	844.337
380.627	1021.79
379.316	1145.7
378.008	1242.83
376.697	1357.11
375.387	1467.52
374.078	1509.2
372.768	1486
371.455	1521.94
370.145	1361.46
368.834	1284.93
367.521	1124.56
366.209	1011.9
364.898	912.625
363.586	779.099
362.273	794.178
360.959	727.373
359.646	624.425
358.332	605.265
357.02	614.658
355.705	544.138
354.391	568.757
353.076	595.267
351.762	511.484
350.447	498.074
349.131	463.761
347.816	516.875
346.5	492.072
345.184	472.977
343.867	529.855
342.551	474.684
341.234	466.995
339.916	474.492
338.6	468.703
337.281	485.683
335.963	455.236
334.645	472.211
333.326	479.7
332.008	456.854
330.689	456.762
329.369	458.564
328.049	441.42
326.73	418.601
325.41	429.879
324.09	416.538
322.768	406.988
321.447	423.939
320.127	406.823
318.805	402.956
317.482	402.874
316.16	399.01
314.838	419.726
313.516	423.421
312.193	383.647
310.871	406.243
309.547	411.828
308.223	368.303
306.9	417.325
305.576	415.352
304.25	424.705
302.926	409.521
301.602	392.456
300.275	375.398
298.951	401.726
297.625	392.216
296.299	356.315
294.973	363.782
293.645	390.091
292.318	386.243
290.992	399.35
289.664	361.601
288.336	359.644
287.008	361.453
285.68	399.023
284.352	425.286
283.023	436.487
281.693	406.301
280.365	409.979
279.035	428.698
277.705	404.172
276.375	402.209
275.045	388.973
273.713	368.227
272.383	388.813
271.051	354.93
269.721	369.878
268.389	343.521
267.057	367.849
265.725	371.526
264.391	356.441
263.059	360.119
261.725	350.669
260.391	382.469
259.059	356.148
257.725	367.319
256.389	376.611
255.055	354.054
253.721	363.346
252.385	374.506
251.049	353.835
249.715	340.659
248.379	394.859
247.041	376.067
245.705	357.283
244.369	405.835
243.031	373.964
241.695	349.584
240.357	403.714
239.02	396.156
237.682	439.044
236.342	403.463
235.004	392.174
233.664	399.561
232.326	393.878
230.986	436.722
229.646	397.447
228.307	427.213
226.965	430.855
225.625	410.252
224.285	451.184
222.943	445.498
221.602	428.633
220.26	430.407
218.918	452.671
217.576	480.514
216.232	476.689
214.891	461.697
213.547	474.629
212.203	459.643
210.859	444.663
209.516	474.332
208.172	464.934
206.826	518.758
205.482	488.907
204.137	494.38
202.791	464.546
201.445	510.893
200.1	484.783
198.754	506.965
197.406	466.013
196.061	458.491
194.713	447.26
193.365	473.142
192.018	484.173
190.67	485.926
189.322	474.699
187.973	493.138
186.625	535.665
185.275	515.168
183.926	503.943
182.576	520.508
181.227	496.324
179.877	499.922
178.525	533.138
177.176	494.159
175.824	451.496
174.473	525.401
173.121	519.741
171.77	477.099
170.418	476.999
169.064	452.868
167.711	469.405
166.359	473.001
165.006	533.861
163.652	456.179
162.297	443.157
160.943	479.985
159.59	470.655
158.234	448.411
156.879	490.75
155.523	474.045
154.168	470.256
152.812	497.812
151.457	516.14
150.1	453.37
148.742	506.708
147.385	510.284
146.027	495.442
144.67	460.35
143.312	486.026
141.955	471.197
140.596	461.896
139.236	489.395
137.879	481.932
136.52	468.956
135.158	476.211
133.799	443.02
132.439	470.494
131.078	472.231
129.717	431.714
128.355	422.438
126.994	431.529
125.633	429.601
124.271	453.37
122.908	425.746
121.547	440.333
120.184	432.901
118.82	394.296
117.457	359.374
116.092	318.967
114.729	271.247
113.363	240.039
112	197.852
110.635	194.146
109.27	170.299
107.904	162.939
106.537	139.109
105.172	117.119
103.805	78.6726
102.439	95.1184
101.072	65.837
99.7051	82.2785
98.3359	60.3245
96.9688	53.001
95.6016	42.0262
94.2324	51.1512
92.8633	0.000000
91.4941	20.0864
90.125	9.128210
88.7559	18.2525
87.3848	9.124249
86.0156	3.648907
84.6445	3.648115
83.2734	18.2366
81.9023	10.9396
80.5312	3.645736
79.1582	23.6921
77.7871	27.3311
76.4141	38.2552
75.043	36.4256
73.6699	7.283533
72.2949	-5.461458
70.9219	0.000000
69.5488	20.0166
68.1738	25.4701
66.8008	14.5512
65.4258	10.911
64.0508	19.9991
62.6738	12.7239
61.2988	10.9038
59.9238	21.8029
58.5469	14.5321
57.1699	-25.4255
55.793	-19.9728
54.416	14.5225
53.0391	27.2237
51.6602	14.5161
50.2832	0.000000
48.9043	10.8823
47.5254	3.626629
46.1465	21.755
44.7676	36.2503
43.3887	25.3696
42.0078	-12.682
40.627	0.000000
39.248	18.1092
37.8672	9.052575
36.4844	-3.620229
35.1035	12.668
33.7227	7.237253
32.3398	-3.617825
30.957	30.7447
29.5742	19.8892
28.1914	19.8848
26.8086	48.7973
25.4258	-18.0691
24.041	5.419514
22.6562	0.000000
21.2734	32.5026
19.8887	27.0795
18.502	10.8294
17.1172	12.6315
15.7324	10.8246
14.3457	12.6258
12.959	-3.606574